trials.thisTrialN,trials.stepSize,trials.intensity,fixation.started,grating.started,key_resp.started,fixation.stopped,grating.stopped,corrAns,tilt,key_resp.corr,trials.response,key_resp.rt,participant,session,date,expName,psychopyVersion,frameRate
0,2,10,16.4748607,17.0909822,17.0909822,17.1091124,17.3924395,left,-10,1,1,2.7144783,95371,1,2023-09-17_11h47.03.025,Adaptive staircase_1,2023.1.3,60.02019079
1,2,8,19.8399251,20.3232171,20.3232171,20.3398418,20.6259506,left,-8,1,1,0.9968062,95371,1,2023-09-17_11h47.03.025,Adaptive staircase_1,2023.1.3,60.02019079
2,2,6,21.3431125,21.8429123,21.8429123,21.859278,22.1428461,right,6,1,1,0.7155997,95371,1,2023-09-17_11h47.03.025,Adaptive staircase_1,2023.1.3,60.02019079
3,2,4,22.5756546,23.075815,23.075815,23.075815,23.3758524,right,4,1,1,0.6620684,95371,1,2023-09-17_11h47.03.025,Adaptive staircase_1,2023.1.3,60.02019079
4,2,2,23.7590521,24.259421,24.259421,24.259421,24.5589502,left,-2,1,1,0.7141527,95371,1,2023-09-17_11h47.03.025,Adaptive staircase_1,2023.1.3,60.02019079
5,1,0,24.9918167,25.4917839,25.4917839,25.4917839,25.7920656,left,0,0,0,0.3311762,95371,1,2023-09-17_11h47.03.025,Adaptive staircase_1,2023.1.3,60.02019079
6,1,1,25.8416898,26.3421555,26.3421555,26.3421555,26.6425735,left,-1,1,1,0.4593652,95371,1,2023-09-17_11h47.03.025,Adaptive staircase_1,2023.1.3,60.02019079
7,1,1,26.8239762,27.3247614,27.3247614,27.3247614,27.6246224,left,-1,1,1,0.4961121,95371,1,2023-09-17_11h47.03.025,Adaptive staircase_1,2023.1.3,60.02019079
8,1,1,27.8402498,28.3405074,28.3405074,28.3405074,28.6411287,left,-1,1,1,0.4466403,95371,1,2023-09-17_11h47.03.025,Adaptive staircase_1,2023.1.3,60.02019079
9,0.5,0,28.8217205,29.3067335,29.3067335,29.3242134,29.6080229,right,0,0,0,0.4175931,95371,1,2023-09-17_11h47.03.025,Adaptive staircase_1,2023.1.3,60.02019079
10,0.5,0.5,29.7404901,30.2387023,30.2387023,30.3040111,30.5412165,right,0.5,0,0,0.4182574,95371,1,2023-09-17_11h47.03.025,Adaptive staircase_1,2023.1.3,60.02019079
11,0.5,1,30.6728317,31.1742036,31.1742036,31.1742036,31.4732895,left,-1,1,1,0.3559854,95371,1,2023-09-17_11h47.03.025,Adaptive staircase_1,2023.1.3,60.02019079
12,0.5,1,31.557625,32.0564729,32.0564729,32.0564729,32.3571326,right,1,0,0,0.3466664,95371,1,2023-09-17_11h47.03.025,Adaptive staircase_1,2023.1.3,60.02019079
13,0.5,1.5,32.4237571,32.9239246,32.9239246,32.9239246,33.2238007,left,-1.5,1,1,0.3213431,95371,1,2023-09-17_11h47.03.025,Adaptive staircase_1,2023.1.3,60.02019079
14,0.5,1.5,33.2735692,33.7731129,33.7731129,33.7731129,34.0738257,right,1.5,0,0,0.39619,95371,1,2023-09-17_11h47.03.025,Adaptive staircase_1,2023.1.3,60.02019079
15,0.5,2,34.1899749,34.6896539,34.6896539,34.6896539,34.9896832,right,2,1,1,0.6599577,95371,1,2023-09-17_11h47.03.025,Adaptive staircase_1,2023.1.3,60.02019079
16,0.5,2,35.3867523,35.8718975,35.8718975,35.8896188,36.1857489,right,2,1,1,0.5775379,95371,1,2023-09-17_11h47.03.025,Adaptive staircase_1,2023.1.3,60.02019079
17,0.5,2,36.472147,36.971738,36.971738,36.971738,37.2720752,right,2,1,1,0.4867083,95371,1,2023-09-17_11h47.03.025,Adaptive staircase_1,2023.1.3,60.02019079
18,0.5,1.5,37.4882077,37.9881545,37.9881545,37.9881545,38.2880871,right,1.5,1,1,0.6280867,95371,1,2023-09-17_11h47.03.025,Adaptive staircase_1,2023.1.3,60.02019079
19,0.5,1.5,38.6381675,39.1388109,39.1388109,39.1388109,39.4387989,right,1.5,1,1,0.6093469,95371,1,2023-09-17_11h47.03.025,Adaptive staircase_1,2023.1.3,60.02019079
20,0.5,1.5,39.7722672,40.2715412,40.2715412,40.2874409,40.5709444,right,1.5,1,1,0.8537506,95371,1,2023-09-17_11h47.03.025,Adaptive staircase_1,2023.1.3,60.02019079
21,0.5,1,41.154776,41.6545461,41.6545461,41.6545461,41.9549703,left,-1,0,0,0.5403935,95371,1,2023-09-17_11h47.03.025,Adaptive staircase_1,2023.1.3,60.02019079
22,0.5,1.5,42.2211335,42.7210494,42.7210494,42.7210494,43.0214702,right,1.5,1,1,0.4879574,95371,1,2023-09-17_11h47.03.025,Adaptive staircase_1,2023.1.3,60.02019079
23,0.5,1.5,43.2381968,43.737102,43.737102,43.7536629,44.0377555,right,1.5,1,1,0.5075311,95371,1,2023-09-17_11h47.03.025,Adaptive staircase_1,2023.1.3,60.02019079
24,0.5,1.5,44.2707188,44.7710547,44.7710547,44.7710547,45.070705,right,1.5,1,1,0.4351363,95371,1,2023-09-17_11h47.03.025,Adaptive staircase_1,2023.1.3,60.02019079
25,0.5,1,45.2363044,45.7369552,45.7369552,45.7369552,46.0369786,right,1,1,1,0.6392872,95371,1,2023-09-17_11h47.03.025,Adaptive staircase_1,2023.1.3,60.02019079
26,0.5,1,46.4037425,46.9033309,46.9033309,46.9033309,47.2043907,right,1,1,1,0.5320422,95371,1,2023-09-17_11h47.03.025,Adaptive staircase_1,2023.1.3,60.02019079
27,0.5,1,47.4536337,47.9526641,47.9526641,47.9700023,48.2532912,right,1,1,1,0.4068352,95371,1,2023-09-17_11h47.03.025,Adaptive staircase_1,2023.1.3,60.02019079
28,0.5,0.5,48.3873855,48.8853387,48.8853387,48.9028607,49.1865425,right,0.5,1,1,0.4608406,95371,1,2023-09-17_11h47.03.025,Adaptive staircase_1,2023.1.3,60.02019079
29,0.5,0.5,49.384033,49.8687027,49.8687027,49.8863041,50.1694904,left,-0.5,0,0,0.484238,95371,1,2023-09-17_11h47.03.025,Adaptive staircase_1,2023.1.3,60.02019079
30,0.5,1,50.3837372,50.868506,50.868506,50.886235,51.1692529,right,1,1,1,0.6014118,95371,1,2023-09-17_11h47.03.025,Adaptive staircase_1,2023.1.3,60.02019079
31,0.5,1,51.4859734,51.9844558,51.9844558,52.0019748,,right,1,1,1,0.2467749,95371,1,2023-09-17_11h47.03.025,Adaptive staircase_1,2023.1.3,60.02019079
32,0.5,1,52.2525803,52.7523186,52.7523186,52.7523186,53.0521413,left,-1,0,0,0.39132,95371,1,2023-09-17_11h47.03.025,Adaptive staircase_1,2023.1.3,60.02019079
33,0.5,1.5,53.1827691,53.6681458,53.6681458,53.6856196,,left,-1.5,0,0,0.2537232,95371,1,2023-09-17_11h47.03.025,Adaptive staircase_1,2023.1.3,60.02019079
34,0.5,2,53.9649369,54.4501541,54.4501541,54.4667385,,right,2,1,1,0.2428113,95371,1,2023-09-17_11h47.03.025,Adaptive staircase_1,2023.1.3,60.02019079
35,0.5,2,54.7191219,55.2184641,55.2184641,55.2184641,,right,2,1,1,0.2495926,95371,1,2023-09-17_11h47.03.025,Adaptive staircase_1,2023.1.3,60.02019079
36,0.5,2,55.4847713,55.9852241,55.9852241,55.9852241,56.2844669,right,2,1,1,0.4737722,95371,1,2023-09-17_11h47.03.025,Adaptive staircase_1,2023.1.3,60.02019079
37,0.5,1.5,56.4848536,56.9845045,56.9845045,56.9845045,57.284134,right,1.5,1,1,0.395053,95371,1,2023-09-17_11h47.03.025,Adaptive staircase_1,2023.1.3,60.02019079
38,0.5,1.5,57.4147722,57.900247,57.900247,57.9183487,58.2011576,right,1.5,1,1,0.4041823,95371,1,2023-09-17_11h47.03.025,Adaptive staircase_1,2023.1.3,60.02019079
39,0.5,1.5,58.3343375,58.8335262,58.8335262,58.8495226,59.1339405,right,1.5,1,1,0.4369366,95371,1,2023-09-17_11h47.03.025,Adaptive staircase_1,2023.1.3,60.02019079
40,0.5,1,59.3005222,59.8001269,59.8001269,59.8001269,60.1007148,right,1,1,1,0.3820326,95371,1,2023-09-17_11h47.03.025,Adaptive staircase_1,2023.1.3,60.02019079
41,0.5,1,60.1995627,60.7006775,60.7006775,60.7006775,61.00046,right,1,1,1,0.3896137,95371,1,2023-09-17_11h47.03.025,Adaptive staircase_1,2023.1.3,60.02019079
42,0.5,1,61.131915,61.6137645,61.6137645,61.6466494,61.9145956,right,1,1,1,0.3898012,95371,1,2023-09-17_11h47.03.025,Adaptive staircase_1,2023.1.3,60.02019079
43,0.5,0.5,62.03077,62.5311195,62.5311195,62.5311195,62.8300429,right,0.5,1,1,0.6485268,95371,1,2023-09-17_11h47.03.025,Adaptive staircase_1,2023.1.3,60.02019079
44,0.5,0.5,63.1974555,63.6821872,63.6821872,63.6996258,63.9970882,left,-0.5,0,0,0.4840107,95371,1,2023-09-17_11h47.03.025,Adaptive staircase_1,2023.1.3,60.02019079
45,0.5,1,64.1959844,64.6790777,64.6790777,64.6960802,64.9791645,left,-1,1,1,0.6914904,95371,1,2023-09-17_11h47.03.025,Adaptive staircase_1,2023.1.3,60.02019079
46,0.5,1,65.3955383,65.8793912,65.8793912,65.895565,66.1819482,right,1,0,0,0.3826843,95371,1,2023-09-17_11h47.03.025,Adaptive staircase_1,2023.1.3,60.02019079
47,0.5,1.5,66.2818818,66.7814071,66.7814071,66.7814071,67.0963879,left,-1.5,1,1,0.5468333,95371,1,2023-09-17_11h47.03.025,Adaptive staircase_1,2023.1.3,60.02019079
48,0.5,1.5,67.3452689,67.8787832,67.8787832,67.8787832,68.1796107,right,1.5,1,1,0.771474,95371,1,2023-09-17_11h47.03.025,Adaptive staircase_1,2023.1.3,60.02019079
49,0.5,1.5,68.6805709,69.1782567,69.1782567,69.1782567,,left,-1.5,1,1,0.2609155,95371,1,2023-09-17_11h47.03.025,Adaptive staircase_1,2023.1.3,60.02019079
50,0.5,1,69.4612065,69.9611517,69.9611517,69.9611517,70.2609579,right,1,0,0,0.4536744,95371,1,2023-09-17_11h47.03.025,Adaptive staircase_1,2023.1.3,60.02019079
51,0.5,1.5,70.4445386,70.9275798,70.9275798,70.9443228,71.2274233,right,1.5,0,0,0.5290475,95371,1,2023-09-17_11h47.03.025,Adaptive staircase_1,2023.1.3,60.02019079
52,0.5,2,71.4773779,71.9606691,71.9606691,71.9773152,72.2604779,left,-2,1,1,0.4001249,95371,1,2023-09-17_11h47.03.025,Adaptive staircase_1,2023.1.3,60.02019079
53,0.5,2,72.3774812,72.8770487,72.8770487,72.8770487,73.1772049,right,2,0,0,0.5628781,95371,1,2023-09-17_11h47.03.025,Adaptive staircase_1,2023.1.3,60.02019079
54,0.5,2.5,73.4606187,73.9601416,73.9601416,73.9601416,74.2600682,left,-2.5,1,1,0.5312851,95371,1,2023-09-17_11h47.03.025,Adaptive staircase_1,2023.1.3,60.02019079
55,0.5,2.5,74.509967,74.9933911,74.9933911,75.0100303,75.2931489,right,2.5,1,1,0.4268045,95371,1,2023-09-17_11h47.03.025,Adaptive staircase_1,2023.1.3,60.02019079
56,0.5,2.5,75.4429607,75.9265711,75.9265711,75.9431708,,right,2.5,0,0,0.2423146,95371,1,2023-09-17_11h47.03.025,Adaptive staircase_1,2023.1.3,60.02019079
57,0.5,3,76.192924,76.6764766,76.6764766,76.693257,76.9760147,left,-3,1,1,0.7362724,95371,1,2023-09-17_11h47.03.025,Adaptive staircase_1,2023.1.3,60.02019079
58,0.5,3,77.4441775,77.9441066,77.9441066,77.9441066,78.2473226,left,-3,0,0,0.3827192,95371,1,2023-09-17_11h47.03.025,Adaptive staircase_1,2023.1.3,60.02019079
59,0.5,3.5,78.3448745,78.8435004,78.8435004,78.8597073,79.1422307,left,-3.5,1,1,0.4364935,95371,1,2023-09-17_11h47.03.025,Adaptive staircase_1,2023.1.3,60.02019079
60,0.5,3.5,79.3093037,79.8093961,79.8093961,79.8093961,80.1090584,right,3.5,1,1,0.5347532,95371,1,2023-09-17_11h47.03.025,Adaptive staircase_1,2023.1.3,60.02019079
61,0.5,3.5,80.3757157,80.8752937,80.8752937,80.8752937,81.1754686,right,3.5,1,1,0.5589149,95371,1,2023-09-17_11h47.03.025,Adaptive staircase_1,2023.1.3,60.02019079
62,0.5,3,81.4587429,81.9585843,81.9585843,81.9585843,82.2587184,right,3,1,1,0.532847,95371,1,2023-09-17_11h47.03.025,Adaptive staircase_1,2023.1.3,60.02019079
63,0.5,3,82.5082298,82.9918794,82.9918794,83.0080735,83.2916828,right,3,1,1,0.5648929,95371,1,2023-09-17_11h47.03.025,Adaptive staircase_1,2023.1.3,60.02019079
64,0.5,3,83.5746728,84.0748941,84.0748941,84.0748941,84.3744468,right,3,1,1,0.4085163,95371,1,2023-09-17_11h47.03.025,Adaptive staircase_1,2023.1.3,60.02019079
65,0.5,2.5,84.5082951,85.0076507,85.0076507,85.0076507,85.3094736,left,-2.5,1,1,0.7743316,95371,1,2023-09-17_11h47.03.025,Adaptive staircase_1,2023.1.3,60.02019079
66,0.5,2.5,85.8079083,86.2930611,86.2930611,86.3107488,86.5945225,right,2.5,1,1,0.5990641,95371,1,2023-09-17_11h47.03.025,Adaptive staircase_1,2023.1.3,60.02019079
67,0.5,2.5,86.9101963,87.4105132,87.4105132,87.4105132,87.7106119,left,-2.5,1,1,0.5484732,95371,1,2023-09-17_11h47.03.025,Adaptive staircase_1,2023.1.3,60.02019079
68,0.5,2,87.9771707,88.4773931,88.4773931,88.4773931,88.7771292,left,-2,1,1,0.6581437,95371,1,2023-09-17_11h47.03.025,Adaptive staircase_1,2023.1.3,60.02019079
69,0.5,2,89.1607278,89.6593908,89.6593908,89.6749055,89.956658,left,-2,0,0,0.6886454,95371,1,2023-09-17_11h47.03.025,Adaptive staircase_1,2023.1.3,60.02019079
70,0.5,2.5,90.3727232,90.857102,90.857102,90.8735389,91.1576683,left,-2.5,1,1,0.5993388,95371,1,2023-09-17_11h47.03.025,Adaptive staircase_1,2023.1.3,60.02019079
71,0.5,2.5,91.4738879,91.9728453,91.9728453,91.9894371,92.2726349,left,-2.5,1,1,0.5479846,95371,1,2023-09-17_11h47.03.025,Adaptive staircase_1,2023.1.3,60.02019079
72,0.5,2.5,92.539344,93.0230299,93.0230299,93.0398282,93.3250233,right,2.5,0,0,0.486434,95371,1,2023-09-17_11h47.03.025,Adaptive staircase_1,2023.1.3,60.02019079
73,0.5,3,93.5419868,94.0414751,94.0414751,94.0414751,94.355381,left,-3,1,1,0.7183293,95371,1,2023-09-17_11h47.03.025,Adaptive staircase_1,2023.1.3,60.02019079
74,0.5,3,94.789033,95.2725913,95.2725913,95.2894262,95.5751429,right,3,1,1,0.5982316,95371,1,2023-09-17_11h47.03.025,Adaptive staircase_1,2023.1.3,60.02019079
75,0.5,3,95.8907997,96.3918484,96.3918484,96.3918484,96.7057221,right,3,1,1,0.48002,95371,1,2023-09-17_11h47.03.025,Adaptive staircase_1,2023.1.3,60.02019079
76,0.5,2.5,96.8894653,97.3894007,97.3894007,97.3894007,97.6887737,left,-2.5,1,1,0.6377597,95371,1,2023-09-17_11h47.03.025,Adaptive staircase_1,2023.1.3,60.02019079
77,0.5,2.5,98.0553609,98.5554674,98.5554674,98.5554674,98.8550164,right,2.5,1,1,0.6380272,95371,1,2023-09-17_11h47.03.025,Adaptive staircase_1,2023.1.3,60.02019079
78,0.5,2.5,99.221614,99.7211082,99.7211082,99.7211082,100.0208284,left,-2.5,1,1,0.6358968,95371,1,2023-09-17_11h47.03.025,Adaptive staircase_1,2023.1.3,60.02019079
79,0.5,2,100.3730619,100.8714577,100.8714577,100.8885381,101.1712467,left,-2,1,1,0.8477182,95371,1,2023-09-17_11h47.03.025,Adaptive staircase_1,2023.1.3,60.02019079
80,0.5,2,101.7397975,102.2377724,102.2377724,102.2546911,102.537425,left,-2,0,0,0.6632765,95371,1,2023-09-17_11h47.03.025,Adaptive staircase_1,2023.1.3,60.02019079
81,0.5,2.5,102.9206709,103.4207146,103.4207146,103.4207146,103.7206838,left,-2.5,1,1,0.5679043,95371,1,2023-09-17_11h47.03.025,Adaptive staircase_1,2023.1.3,60.02019079
82,0.5,2.5,104.0196154,104.5199506,104.5199506,104.5199506,104.8201275,right,2.5,1,1,0.5233042,95371,1,2023-09-17_11h47.03.025,Adaptive staircase_1,2023.1.3,60.02019079
83,0.5,2.5,105.0713586,105.5702036,105.5702036,105.5867546,105.8699502,right,2.5,1,1,0.6330172,95371,1,2023-09-17_11h47.03.025,Adaptive staircase_1,2023.1.3,60.02019079
84,0.5,2,106.2210375,106.7048449,106.7048449,106.721552,107.0060492,right,2,1,1,0.6120698,95371,1,2023-09-17_11h47.03.025,Adaptive staircase_1,2023.1.3,60.02019079
85,0.5,2,107.3388445,107.8386988,107.8386988,107.8386988,108.1386454,left,-2,1,1,0.7004671,95371,1,2023-09-17_11h47.03.025,Adaptive staircase_1,2023.1.3,60.02019079
86,0.5,2,108.5551462,109.056674,109.056674,109.056674,109.3722005,right,2,1,1,0.9036796,95371,1,2023-09-17_11h47.03.025,Adaptive staircase_1,2023.1.3,60.02019079
87,0.5,1.5,109.9875345,110.487991,110.487991,110.487991,110.7883754,left,-1.5,1,1,0.7441737,95371,1,2023-09-17_11h47.03.025,Adaptive staircase_1,2023.1.3,60.02019079
88,0.5,1.5,111.2542416,111.7543877,111.7543877,111.7543877,112.0561823,right,1.5,1,1,0.7790574,95371,1,2023-09-17_11h47.03.025,Adaptive staircase_1,2023.1.3,60.02019079
89,0.5,1.5,112.5543256,113.0544612,113.0544612,113.0544612,113.3543712,left,-1.5,0,0,0.6826123,95371,1,2023-09-17_11h47.03.025,Adaptive staircase_1,2023.1.3,60.02019079
90,0.5,2,113.753879,114.2538785,114.2538785,114.2538785,114.5547238,right,2,1,1,0.682664,95371,1,2023-09-17_11h47.03.025,Adaptive staircase_1,2023.1.3,60.02019079
91,0.5,2,114.9536781,115.4532796,115.4532796,115.4532796,115.7534901,left,-2,1,1,0.9129269,95371,1,2023-09-17_11h47.03.025,Adaptive staircase_1,2023.1.3,60.02019079
92,0.5,2,116.3870495,116.870144,116.870144,116.8862762,117.1697897,right,2,1,1,0.545351,95371,1,2023-09-17_11h47.03.025,Adaptive staircase_1,2023.1.3,60.02019079
93,0.5,1.5,117.4358205,117.9362709,117.9362709,117.9362709,118.2365841,right,1.5,1,1,0.6977334,95371,1,2023-09-17_11h47.03.025,Adaptive staircase_1,2023.1.3,60.02019079
94,0.5,1.5,118.6522552,119.1519961,119.1519961,119.1519961,119.4668724,left,-1.5,1,1,0.8576527,95371,1,2023-09-17_11h47.03.025,Adaptive staircase_1,2023.1.3,60.02019079
95,0.5,1.5,120.0357828,120.5357215,120.5357215,120.5357215,120.8362315,left,-1.5,0,0,0.8698166,95371,1,2023-09-17_11h47.03.025,Adaptive staircase_1,2023.1.3,60.02019079
96,0.5,2,121.4362858,121.9356449,121.9356449,121.9517977,122.2356864,left,-2,1,1,0.744983,95371,1,2023-09-17_11h47.03.025,Adaptive staircase_1,2023.1.3,60.02019079
97,0.5,2,122.7030703,123.2009502,123.2009502,123.2187725,123.5019117,right,2,1,1,0.5601656,95371,1,2023-09-17_11h47.03.025,Adaptive staircase_1,2023.1.3,60.02019079
98,0.5,2,123.7852535,124.2850859,124.2850859,124.2850859,124.5850193,left,-2,1,1,0.716159,95371,1,2023-09-17_11h47.03.025,Adaptive staircase_1,2023.1.3,60.02019079
99,0.5,1.5,125.0181617,125.517459,125.517459,125.517459,125.8174192,right,1.5,1,1,1.0155297,95371,1,2023-09-17_11h47.03.025,Adaptive staircase_1,2023.1.3,60.02019079
100,0.5,1.5,126.5646675,127.0511973,127.0511973,127.068149,127.3515943,right,1.5,1,1,0.7561521,95371,1,2023-09-17_11h47.03.025,Adaptive staircase_1,2023.1.3,60.02019079
101,0.5,1.5,127.8333689,128.3333494,128.3333494,128.3333494,128.6341317,left,-1.5,1,1,0.8280598,95371,1,2023-09-17_11h47.03.025,Adaptive staircase_1,2023.1.3,60.02019079
102,0.5,1,129.1982668,129.6830077,129.6830077,129.6995463,129.9832225,left,-1,1,1,0.6520968,95371,1,2023-09-17_11h47.03.025,Adaptive staircase_1,2023.1.3,60.02019079
103,0.5,1,130.3505372,130.8491498,130.8491498,130.8695026,131.1502666,right,1,0,0,0.6615904,95371,1,2023-09-17_11h47.03.025,Adaptive staircase_1,2023.1.3,60.02019079
104,0.5,1.5,131.5334266,132.0329319,132.0329319,132.0329319,132.3332993,left,-1.5,1,1,0.7357233,95371,1,2023-09-17_11h47.03.025,Adaptive staircase_1,2023.1.3,60.02019079
105,0.5,1.5,132.7996109,133.2997402,133.2997402,133.2997402,133.5992093,left,-1.5,1,1,0.5505874,95371,1,2023-09-17_11h47.03.025,Adaptive staircase_1,2023.1.3,60.02019079
106,0.5,1.5,133.8665601,134.3664251,134.3664251,134.3664251,134.6660569,right,1.5,1,1,0.6987215,95371,1,2023-09-17_11h47.03.025,Adaptive staircase_1,2023.1.3,60.02019079
107,0.5,1,135.0816929,135.5812659,135.5812659,135.5963357,135.8810917,left,-1,0,0,0.6986796,95371,1,2023-09-17_11h47.03.025,Adaptive staircase_1,2023.1.3,60.02019079
108,0.5,1.5,136.2976768,136.7989502,136.7989502,136.7989502,137.1147215,right,1.5,1,1,0.5757749,95371,1,2023-09-17_11h47.03.025,Adaptive staircase_1,2023.1.3,60.02019079
109,0.5,1.5,137.4143424,137.8977047,137.8977047,137.914354,138.2121363,right,1.5,1,1,0.5489752,95371,1,2023-09-17_11h47.03.025,Adaptive staircase_1,2023.1.3,60.02019079
110,0.5,1.5,138.4660892,138.9658991,138.9658991,138.9818539,139.278376,right,1.5,1,1,0.3623075,95371,1,2023-09-17_11h47.03.025,Adaptive staircase_1,2023.1.3,60.02019079
111,0.5,1,139.3449438,139.8304048,139.8304048,139.847228,140.1320435,left,-1,0,0,0.476336,95371,1,2023-09-17_11h47.03.025,Adaptive staircase_1,2023.1.3,60.02019079
112,0.5,1.5,140.3276129,140.8144419,140.8144419,140.8312665,141.1140071,right,1.5,1,1,0.3640219,95371,1,2023-09-17_11h47.03.025,Adaptive staircase_1,2023.1.3,60.02019079
113,0.5,1.5,141.1971743,141.7018768,141.7018768,141.7018768,142.0142463,left,-1.5,0,0,0.35058,95371,1,2023-09-17_11h47.03.025,Adaptive staircase_1,2023.1.3,60.02019079
114,0.5,2,142.0828437,142.5821736,142.5821736,142.597505,142.8977453,left,-2,0,0,0.4410069,95371,1,2023-09-17_11h47.03.025,Adaptive staircase_1,2023.1.3,60.02019079
115,0.5,2.5,143.0462083,143.5467455,143.5467455,143.5467455,143.8467203,left,-2.5,0,0,0.2738736,95371,1,2023-09-17_11h47.03.025,Adaptive staircase_1,2023.1.3,60.02019079
116,0.5,3,143.8467203,144.3476084,144.3476084,144.3476084,144.6465207,right,3,1,1,0.3131253,95371,1,2023-09-17_11h47.03.025,Adaptive staircase_1,2023.1.3,60.02019079
117,0.5,3,144.6801272,145.1803195,145.1803195,145.1803195,145.4799362,right,3,1,1,0.4406566,95371,1,2023-09-17_11h47.03.025,Adaptive staircase_1,2023.1.3,60.02019079
118,0.5,3,145.645704,146.1461518,146.1461518,146.1461518,146.4464847,left,-3,0,0,0.2862369,95371,1,2023-09-17_11h47.03.025,Adaptive staircase_1,2023.1.3,60.02019079
119,0.5,3.5,146.4635733,146.9628066,146.9628066,146.9628066,147.2789746,left,-3.5,0,0,0.3218856,95371,1,2023-09-17_11h47.03.025,Adaptive staircase_1,2023.1.3,60.02019079
120,0.5,4,147.3120248,147.8098784,147.8098784,147.8260177,148.110829,left,-4,0,0,0.311428,95371,1,2023-09-17_11h47.03.025,Adaptive staircase_1,2023.1.3,60.02019079
121,0.5,4.5,148.1447326,148.6285535,148.6285535,148.6461986,148.9299867,left,-4.5,0,0,0.3402383,95371,1,2023-09-17_11h47.03.025,Adaptive staircase_1,2023.1.3,60.02019079
122,0.5,5,148.995891,149.4949679,149.4949679,149.5115079,149.7955694,left,-5,0,0,0.5109288,95371,1,2023-09-17_11h47.03.025,Adaptive staircase_1,2023.1.3,60.02019079
123,0.5,5.5,150.0282578,150.5288594,150.5288594,150.5288594,150.8287958,left,-5.5,0,0,0.4004725,95371,1,2023-09-17_11h47.03.025,Adaptive staircase_1,2023.1.3,60.02019079
124,0.5,6,150.9455054,151.4442789,151.4442789,151.4442789,151.7454075,left,-6,0,0,0.3743244,95371,1,2023-09-17_11h47.03.025,Adaptive staircase_1,2023.1.3,60.02019079
125,0.5,6.5,151.8455869,152.3442641,152.3442641,152.3442641,152.6447229,left,-6.5,0,0,0.4599121,95371,1,2023-09-17_11h47.03.025,Adaptive staircase_1,2023.1.3,60.02019079
126,0.5,7,152.8283684,153.327917,153.327917,153.327917,153.6284486,left,-7,1,1,0.7543562,95371,1,2023-09-17_11h47.03.025,Adaptive staircase_1,2023.1.3,60.02019079
127,0.5,7,154.1104453,154.6121973,154.6121973,154.6121973,154.9110586,right,7,1,1,0.3608116,95371,1,2023-09-17_11h47.03.025,Adaptive staircase_1,2023.1.3,60.02019079
128,0.5,7,154.994069,155.4943602,155.4943602,155.4943602,155.7942805,right,7,1,1,0.4600237,95371,1,2023-09-17_11h47.03.025,Adaptive staircase_1,2023.1.3,60.02019079
129,0.5,6.5,155.9780156,156.4771093,156.4771093,156.4771093,156.7776968,left,-6.5,1,1,0.585951,95371,1,2023-09-17_11h47.03.025,Adaptive staircase_1,2023.1.3,60.02019079
130,0.5,6.5,157.0939485,157.5937917,157.5937917,157.5937917,157.8945442,left,-6.5,1,1,0.4381883,95371,1,2023-09-17_11h47.03.025,Adaptive staircase_1,2023.1.3,60.02019079
131,0.5,6.5,158.0611339,158.5591555,158.5591555,158.577663,158.8604172,right,6.5,1,1,0.5769164,95371,1,2023-09-17_11h47.03.025,Adaptive staircase_1,2023.1.3,60.02019079
132,0.5,6,159.1744414,159.6590994,159.6590994,159.6756457,159.9588302,right,6,1,1,0.4900877,95371,1,2023-09-17_11h47.03.025,Adaptive staircase_1,2023.1.3,60.02019079
133,0.5,6,160.1920704,160.6772707,160.6772707,160.6930042,160.9765217,left,-6,1,1,1.0268858,95371,1,2023-09-17_11h47.03.025,Adaptive staircase_1,2023.1.3,60.02019079
134,0.5,6,161.7265844,162.2260322,162.2260322,162.2260322,162.5260203,right,6,1,1,0.4184612,95371,1,2023-09-17_11h47.03.025,Adaptive staircase_1,2023.1.3,60.02019079
135,0.5,5.5,162.6732815,163.1580508,163.1580508,163.1755848,163.4595003,left,-5.5,1,1,0.5852915,95371,1,2023-09-17_11h47.03.025,Adaptive staircase_1,2023.1.3,60.02019079
136,0.5,5.5,163.7730952,164.2578329,164.2578329,164.2745865,164.5589174,left,-5.5,0,0,0.4245538,95371,1,2023-09-17_11h47.03.025,Adaptive staircase_1,2023.1.3,60.02019079
137,0.5,6,164.7221051,165.2065485,165.2065485,165.2232612,165.5066574,right,6,1,1,0.975123,95371,1,2023-09-17_11h47.03.025,Adaptive staircase_1,2023.1.3,60.02019079
138,0.5,6,166.2050043,166.6919365,166.6919365,166.7081422,166.991699,left,-6,1,1,0.5923828,95371,1,2023-09-17_11h47.03.025,Adaptive staircase_1,2023.1.3,60.02019079
139,0.5,6,167.3081185,167.808499,167.808499,167.808499,168.1080795,left,-6,1,1,0.695123,95371,1,2023-09-17_11h47.03.025,Adaptive staircase_1,2023.1.3,60.02019079
140,0.5,5.5,168.5245645,169.0243842,169.0243842,169.0243842,169.3242149,right,5.5,1,1,0.632516,95371,1,2023-09-17_11h47.03.025,Adaptive staircase_1,2023.1.3,60.02019079
141,0.5,5.5,169.6746823,170.1752293,170.1752293,170.1752293,170.4904276,right,5.5,1,1,0.4562807,95371,1,2023-09-17_11h47.03.025,Adaptive staircase_1,2023.1.3,60.02019079
142,0.5,5.5,170.6548661,171.1543571,171.1543571,171.1742044,171.457028,right,5.5,1,1,0.4957692,95371,1,2023-09-17_11h47.03.025,Adaptive staircase_1,2023.1.3,60.02019079
143,0.5,5,171.673349,172.1725716,172.1725716,172.1725716,172.4739166,left,-5,1,1,0.6974447,95371,1,2023-09-17_11h47.03.025,Adaptive staircase_1,2023.1.3,60.02019079
144,0.5,5,172.889879,173.3903885,173.3903885,173.3903885,173.6903472,right,5,1,1,0.5206047,95371,1,2023-09-17_11h47.03.025,Adaptive staircase_1,2023.1.3,60.02019079
145,0.5,5,173.9401757,174.4409703,174.4409703,174.4409703,174.7398372,right,5,1,1,0.6331072,95371,1,2023-09-17_11h47.03.025,Adaptive staircase_1,2023.1.3,60.02019079
146,0.5,4.5,175.1042543,175.6027925,175.6027925,175.6219657,175.9046654,right,4.5,1,1,0.6125697,95371,1,2023-09-17_11h47.03.025,Adaptive staircase_1,2023.1.3,60.02019079
147,0.5,4.5,176.2382842,176.7394366,176.7394366,176.7394366,177.0394848,left,-4.5,1,1,0.5953686,95371,1,2023-09-17_11h47.03.025,Adaptive staircase_1,2023.1.3,60.02019079
148,0.5,4.5,177.3557261,177.8552143,177.8552143,177.8724244,178.1554395,left,-4.5,1,1,0.648127,95371,1,2023-09-17_11h47.03.025,Adaptive staircase_1,2023.1.3,60.02019079
149,0.5,4,178.5213097,179.0224861,179.0224861,179.0224861,179.3218497,left,-4,1,1,0.6190466,95371,1,2023-09-17_11h47.03.025,Adaptive staircase_1,2023.1.3,60.02019079
150,0.5,4,179.6717537,180.1709518,180.1709518,180.1709518,180.4714642,left,-4,1,1,0.6290876,95371,1,2023-09-17_11h47.03.025,Adaptive staircase_1,2023.1.3,60.02019079
151,0.5,4,180.8214534,181.321918,181.321918,181.321918,181.6215531,left,-4,1,1,0.6309128,95371,1,2023-09-17_11h47.03.025,Adaptive staircase_1,2023.1.3,60.02019079
152,0.5,3.5,181.9715803,182.4713355,182.4713355,182.4713355,182.7705854,left,-3.5,1,1,0.6159688,95371,1,2023-09-17_11h47.03.025,Adaptive staircase_1,2023.1.3,60.02019079
153,0.5,3.5,183.1044972,183.6040707,183.6040707,183.6040707,183.9044919,left,-3.5,1,1,0.7125301,95371,1,2023-09-17_11h47.03.025,Adaptive staircase_1,2023.1.3,60.02019079
154,0.5,3.5,184.3363242,184.8364802,184.8364802,184.8364802,185.1377903,left,-3.5,1,1,0.9897544,95371,1,2023-09-17_11h47.03.025,Adaptive staircase_1,2023.1.3,60.02019079
155,0.5,3,185.8526941,186.3534167,186.3534167,186.3534167,186.6534955,left,-3,1,1,0.9033604,95371,1,2023-09-17_11h47.03.025,Adaptive staircase_1,2023.1.3,60.02019079
156,0.5,3,187.2865138,187.7863588,187.7863588,187.7863588,188.0866618,right,3,1,1,0.3917174,95371,1,2023-09-17_11h47.03.025,Adaptive staircase_1,2023.1.3,60.02019079
157,0.5,3,188.2029666,188.6861383,188.6861383,188.7021737,188.9873211,left,-3,1,1,0.5338507,95371,1,2023-09-17_11h47.03.025,Adaptive staircase_1,2023.1.3,60.02019079
158,0.5,2.5,189.2363251,189.7360696,189.7360696,189.7360696,190.0360551,right,2.5,1,1,0.7790379,95371,1,2023-09-17_11h47.03.025,Adaptive staircase_1,2023.1.3,60.02019079
159,0.5,2.5,190.5501573,191.0359279,191.0359279,191.0522315,191.3353503,left,-2.5,1,1,0.645924,95371,1,2023-09-17_11h47.03.025,Adaptive staircase_1,2023.1.3,60.02019079
160,0.5,2.5,191.7022081,192.2023473,192.2023473,192.2023473,192.5023059,right,2.5,0,0,0.5487292,95371,1,2023-09-17_11h47.03.025,Adaptive staircase_1,2023.1.3,60.02019079
161,0.5,3,192.7687331,193.2677947,193.2677947,193.2852679,193.5686182,left,-3,1,1,0.5599726,95371,1,2023-09-17_11h47.03.025,Adaptive staircase_1,2023.1.3,60.02019079
162,0.5,3,193.8655519,194.3509407,194.3509407,194.3680358,194.6518682,right,3,0,0,0.4198848,95371,1,2023-09-17_11h47.03.025,Adaptive staircase_1,2023.1.3,60.02019079
163,0.5,3.5,194.8025668,195.3010084,195.3010084,195.3178729,195.601167,left,-3.5,1,1,0.607128,95371,1,2023-09-17_11h47.03.025,Adaptive staircase_1,2023.1.3,60.02019079
164,0.5,3.5,195.9344841,196.4352639,196.4352639,196.4352639,196.7345841,right,3.5,0,0,0.5217015,95371,1,2023-09-17_11h47.03.025,Adaptive staircase_1,2023.1.3,60.02019079
165,0.5,4,196.998302,197.4835814,197.4835814,197.5002821,197.7842376,left,-4,1,1,0.8933996,95371,1,2023-09-17_11h47.03.025,Adaptive staircase_1,2023.1.3,60.02019079
166,0.5,4,198.4008808,198.9004222,198.9004222,198.9004222,199.2007805,right,4,1,1,0.4389312,95371,1,2023-09-17_11h47.03.025,Adaptive staircase_1,2023.1.3,60.02019079
167,0.5,4,199.367191,199.8666092,199.8666092,199.8666092,200.1665432,right,4,1,1,0.7751671,95371,1,2023-09-17_11h47.03.025,Adaptive staircase_1,2023.1.3,60.02019079
168,0.5,3.5,200.6670153,201.167045,201.167045,201.167045,201.4667091,right,3.5,1,1,0.7378139,95371,1,2023-09-17_11h47.03.025,Adaptive staircase_1,2023.1.3,60.02019079
169,0.5,3.5,201.9333436,202.4331297,202.4331297,202.4331297,202.7328324,right,3.5,1,1,0.5479029,95371,1,2023-09-17_11h47.03.025,Adaptive staircase_1,2023.1.3,60.02019079
170,0.5,3.5,203.012727,203.498591,203.498591,203.5164253,203.7991639,left,-3.5,1,1,0.5823958,95371,1,2023-09-17_11h47.03.025,Adaptive staircase_1,2023.1.3,60.02019079
171,0.5,3,204.0976287,204.5815119,204.5815119,204.5981974,204.8825735,left,-3,1,1,0.663924,95371,1,2023-09-17_11h47.03.025,Adaptive staircase_1,2023.1.3,60.02019079
172,0.5,3,205.2657761,205.7656976,205.7656976,205.7656976,206.0666924,left,-3,1,1,0.3887125,95371,1,2023-09-17_11h47.03.025,Adaptive staircase_1,2023.1.3,60.02019079
173,0.5,3,206.1819919,206.6818456,206.6818456,206.6818456,206.9826664,left,-3,1,1,0.4788894,95371,1,2023-09-17_11h47.03.025,Adaptive staircase_1,2023.1.3,60.02019079
174,0.5,2.5,207.1822562,207.6815528,207.6815528,207.6815528,207.9815833,right,2.5,0,0,0.6454977,95371,1,2023-09-17_11h47.03.025,Adaptive staircase_1,2023.1.3,60.02019079
175,0.5,3,208.3505241,208.8480657,208.8480657,208.8636803,209.1476972,right,3,0,0,0.8263811,95371,1,2023-09-17_11h47.03.025,Adaptive staircase_1,2023.1.3,60.02019079
176,0.5,3.5,209.697793,210.1995677,210.1995677,210.1995677,210.5149795,right,3.5,0,0,0.4690993,95371,1,2023-09-17_11h47.03.025,Adaptive staircase_1,2023.1.3,60.02019079
177,0.5,4,210.6976659,211.1977652,211.1977652,211.1977652,211.4975169,right,4,1,1,0.5040044,95371,1,2023-09-17_11h47.03.025,Adaptive staircase_1,2023.1.3,60.02019079
178,0.5,4,211.7308269,212.2315839,212.2315839,212.2315839,212.5471101,left,-4,1,1,0.3828523,95371,1,2023-09-17_11h47.03.025,Adaptive staircase_1,2023.1.3,60.02019079
179,0.5,4,212.6308633,213.1308882,213.1308882,213.1308882,213.4305471,left,-4,1,1,0.5177519,95371,1,2023-09-17_11h47.03.025,Adaptive staircase_1,2023.1.3,60.02019079
180,0.5,3.5,213.6805183,214.1804913,214.1804913,214.1804913,214.4811057,left,-3.5,1,1,0.4108308,95371,1,2023-09-17_11h47.03.025,Adaptive staircase_1,2023.1.3,60.02019079
181,0.5,3.5,214.6135087,215.113106,215.113106,215.113106,215.4131381,left,-3.5,1,1,0.4182158,95371,1,2023-09-17_11h47.03.025,Adaptive staircase_1,2023.1.3,60.02019079
182,0.5,3.5,215.5640492,216.0628329,216.0628329,216.0796558,216.3632165,right,3.5,1,1,0.3062219,95371,1,2023-09-17_11h47.03.025,Adaptive staircase_1,2023.1.3,60.02019079
183,0.5,3,216.3971988,216.8967258,216.8967258,216.8967258,217.1962707,right,3,1,1,0.4853315,95371,1,2023-09-17_11h47.03.025,Adaptive staircase_1,2023.1.3,60.02019079
184,0.5,3,217.4137261,217.9119016,217.9119016,217.9285743,218.2133954,right,3,0,0,0.402966,95371,1,2023-09-17_11h47.03.025,Adaptive staircase_1,2023.1.3,60.02019079
185,0.5,3.5,218.3464527,218.8460902,218.8460902,218.861554,219.1464571,right,3.5,1,1,0.476439,95371,1,2023-09-17_11h47.03.025,Adaptive staircase_1,2023.1.3,60.02019079
186,0.5,3.5,219.3460893,219.8451106,219.8451106,219.8612129,220.1455285,left,-3.5,1,1,0.6160556,95371,1,2023-09-17_11h47.03.025,Adaptive staircase_1,2023.1.3,60.02019079
187,0.5,3.5,220.4792897,220.9788936,220.9788936,220.9788936,221.2786463,left,-3.5,1,1,0.8231969,95371,1,2023-09-17_11h47.03.025,Adaptive staircase_1,2023.1.3,60.02019079
188,0.5,3,221.8284129,222.3284815,222.3284815,222.3284815,222.628589,left,-3,1,1,0.4253261,95371,1,2023-09-17_11h47.03.025,Adaptive staircase_1,2023.1.3,60.02019079
189,0.5,3,222.7777191,223.2778365,223.2778365,223.2778365,223.5781914,left,-3,1,1,0.458563,95371,1,2023-09-17_11h47.03.025,Adaptive staircase_1,2023.1.3,60.02019079
190,0.5,3,223.7612787,224.2611955,224.2611955,224.2611955,224.5623095,left,-3,1,1,0.6532449,95371,1,2023-09-17_11h47.03.025,Adaptive staircase_1,2023.1.3,60.02019079
191,0.5,2.5,224.9445214,225.4442134,225.4442134,225.4442134,225.744116,left,-2.5,1,1,0.3310851,95371,1,2023-09-17_11h47.03.025,Adaptive staircase_1,2023.1.3,60.02019079
192,0.5,2.5,225.7939046,226.2938637,226.2938637,226.2938637,226.5942413,right,2.5,0,0,0.3977978,95371,1,2023-09-17_11h47.03.025,Adaptive staircase_1,2023.1.3,60.02019079
193,0.5,3,226.7096162,227.2111103,227.2111103,227.2111103,227.5104332,left,-3,1,1,0.471667,95371,1,2023-09-17_11h47.03.025,Adaptive staircase_1,2023.1.3,60.02019079
194,0.5,3,227.7102309,228.2098633,228.2098633,228.2098633,228.5101478,right,3,0,0,0.3044783,95371,1,2023-09-17_11h47.03.025,Adaptive staircase_1,2023.1.3,60.02019079
195,0.5,3.5,228.5437462,229.0426151,229.0426151,229.059834,229.3436459,right,3.5,0,0,0.4836037,95371,1,2023-09-17_11h47.03.025,Adaptive staircase_1,2023.1.3,60.02019079
196,0.5,4,229.543431,230.0440513,230.0440513,230.0440513,230.3431586,left,-4,0,0,0.305775,95371,1,2023-09-17_11h47.03.025,Adaptive staircase_1,2023.1.3,60.02019079
197,0.5,4.5,230.3763325,230.8758872,230.8758872,230.8758872,231.1762012,right,4.5,0,0,0.4353686,95371,1,2023-09-17_11h47.03.025,Adaptive staircase_1,2023.1.3,60.02019079
198,0.5,5,231.3427289,231.8424958,231.8424958,231.8424958,232.1424039,left,-5,1,1,0.5866667,95371,1,2023-09-17_11h47.03.025,Adaptive staircase_1,2023.1.3,60.02019079
199,0.5,5,232.45999,232.958751,232.958751,232.9754496,233.258707,left,-5,1,1,0.6600398,95371,1,2023-09-17_11h47.03.025,Adaptive staircase_1,2023.1.3,60.02019079
